File: dfTsite_March.csv
,Local-StructuralSetting,Local-QuaternaryFaultRecency,Local-QuaternaryFaultSlipDilation,Local-QuaternaryFaultSlipRate,QuaternaryFaultDensity,HorizGravityGradient2,GeodeticStrainRate,QuaternarySlipRate,FaultRecency,FaultSlipDilationTendency,Earthquakes,HeatSource-T@3km,HorizMagneticGradient2,GeochemistryTemperature,Heatflow,Tufa_Distance,Travertine_Distance,Silica_Distance,Hillshade-100m,DEM-30m,GravMaxSpotDensity,MagMaxSpotDensity,X_83UTM11,Y_83UTM11,TrainCodeNeg,TrainCodePos,TrainCodePosT130,T37,NAME,MAX_TEMP,THERMOM,MAX_MAXT,Field_Visi,Blind,NmP_power
0,0.833126,0.989053,0.378001,0.502286,-0.560527,1.87731,-0.319882,1.55785,0.118046,-0.0851936,-0.580015,-0.200121,1.06916,5.37794,-0.0547262,0.36977,-0.852258,0.272755,0.158067,-0.374482,1.21697,-1.64585,488078,4319713.766,12,1,1,12,Carlotti Ranch Springs,39,0,39, ,no,0
1,0.482959,0.211882,0.827896,0.211801,-0.538742,0.129884,0.213211,-0.458461,0.258715,0.139921,-0.135656,-0.003431848,-0.40439,-0.186819,1.4631,-1.00121,-1.23679,-0.930045,-0.166665,-0.660776,-1.4363,-0.729581,457078,4417963.766,12,1,12,1,Paris Well,22,63,63, ,yes,0
2,0.407227,0.575999,0.306467,0.540821,1.26053,0.0611094,0.956187,0.214461,1.17836,0.266093,-0.467806,0.208359,-0.940228,3.09754,1.25557,-0.546572,1.07756,-0.258271,0.714749,-0.887747,1.56304,-0.958648,494578,4462713.766,12,1,12,1,Wilson Hot Spring,94,0,94, ,no,0
3,0.774051,0.446678,0.203922,0.796993,0.896988,0.739095,0.819395,0.301331,1.39561,0.353466,0.345153,0.938179,-0.414695,3.66729,1.09836,1.29291,-0.129248,2.17014,0.158067,-1.72599,0.64017,-1.41678,448328,4436713.766,12,1,12,1,Beowawe,216,227,227,yes,no,18.5
4,0.899162,0.903226,0.262425,0.721711,-1.05175,0.05488055,-1.49131,-0.363878,-1.15315,0.945821,-0.787486,-1.19684,-0.424999,2.55087,-0.463775,-1.01264,2.06122,0.467998,-0.352225,-0.116561,-0.513423,-1.53132,579078,4421713.766,12,1,12,1,Battle Mountain City Well,23,89,89, ,yes,0
5,0.330726,0.551467,0.907771,0.407845,0.287226,2.44588,0.649494,0.185227,0.51843,-0.133906,0.043048,0.862609,0.007792653,5.37794,0.991519,0.01137718,-0.548307,-0.742289,0.297237,-1.1663,1.56304,1.33203,458078,4447713.766,12,1,1,12,Spring Valley Well,28,79,79, ,yes,0
6,0.12391,0.0906459,0.318626,0.288235,1.2851,-1.17998,1.3277,-0.875585,-1.59564,0.116588,0.187495,-0.402656,1.1619,-0.186819,0.765071,-0.236884,-0.171032,-0.338912,-1.00169,-0.387379,-1.09022,1.5611,325828,4261213.766,12,1,12,1,Patua Hot Springs,135,182,182,yes,no,48
7,0.535994,0.989924,0.293106,0.800214,-0.618423,-0.512205,-0.870643,1.58668,1.49405,-0.874138,-0.370134,-0.196162,-0.0231211,3.69117,1.00457,-1.1727,-0.0421611,-0.863281,0.158067,-0.993495,-0.167345,0.301223,545328,4495213.766,12,1,12,1,Reese River,150,63,150,yes,yes,0
8,0.743775,0.281187,0.354038,0.670216,-0.0523746,2.30563,-1.01878,0.428161,-0.0996625,0.536022,-1.35238,0.956082,-0.754745,5.37794,-0.406033,1.00111,-1.29831,-0.157846,0.111677,0.0381926,1.21697,-0.385979,688078,4393213.766,12,1,12,1,Duckwater Area,34,45,45,yes,no,0
9,0.344645,0.162797,0.427482,0.768075,-0.653918,3.14133,1.26096,1.75055,1.6537,0.238445,1.35906,0.156964,0.213884,5.37794,1.31261,-1.3134,2.1323,0.137281,-0.0274941,-1.72599,1.6784,1.10296,426828,4423463.766,12,1,1,12,Salt Wells,177,188,188,yes,no,23.6
10,0.834193,0.489089,0.729851,0.581597,-0.489102,-1.28953,-0.393025,-1.59582,-0.841452,0.400187,0.475535,0.775104,0.43028,4.87191,-0.8928836,1.63362,1.88998,3.03087,-0.120274,0.293535,-1.4363,0.759359,653078,4312713.766,12,1,12,1,near Dann Ranch,86,0,86,yes,no,0
11,0.221363,0.45719,0.80791,0.457006,-0.317122,0.956721,-1.5532,3.04399,2.47667,0.451266,-1.35238,1.95597,-0.383781,5.37794,0.856456,-1.29075,-0.768829,-1.00957,0.0188961,0.0717225,1.44769,-0.042378,645078,4494213.766,12,1,1,12,Unnamed Hot Pool-Carico Valley,50,45,50, ,no,0
12,0.150489,0.632429,0.976598,0.363881,-0.758414,2.32817,1.21828,0.584405,0.107538,0.738235,1.56896,-0.216867,0.832158,3.72993,0.842695,1.45844,1.02132,2.6547,-0.0738843,-0.903222,1.56304,1.44656,418578,4312963.766,12,1,12,1,Horseshoe Ranch Spr,58,77,77, ,no,0
13,0.348546,0.428812,0.93523,0.719084,-0.450713,0.217731,1.12004,1.76505,1.43687,-0.19725,0.624525,0.183088,-0.0643393,2.784,0.445699,1.58517,1.04546,0.0773261,-0.862518,-0.949648,0.986248,0.18669,446828,4476713.766,12,1,12,1,Bartine Hot Springs,47,62,62,yes,no,0
14,0.721963,0.233275,0.0530503,0.414793,-0.942465,1.54307,0.407076,1.00971,1.43234,0.198294,0.043048,1.70624,-0.723832,5.37794,1.07985,-0.344886,0.472972,-0.562664,0.111677,-1.04508,1.44769,0.0721558,472328,4468713.766,12,1,12,1,Silver Springs,60,149,149,yes,yes,0
15,0.195853,0.009600207,0.199689,0.644958,-1.36053,0.892955,-0.509616,1.16935,-0.0424028,-1.34485,-0.206034,0.0327391,-0.0128165,4.73,-0.309925,1.00856,-1.08998,1.67579,0.204457,-0.374482,0.64017,-0.156912,494828,4311463.766,12,1,1,12,Rawhide-Wedell Hot Spring,62,151,151, ,no,0
16,0.411646,0.35772,0.885123,0.193966,1.42443,0.3635,1.31031,0.599247,1.4296,0.493644,0.738421,-0.851631,0.007792653,2.55087,0.507827,-1.32603,-0.0470325,-0.647948,-0.120274,-1.29011,0.178733,0.988426,442328,4455463.766,12,1,12,1,Gerlach,131,192,192,yes,no,0
17,0.075515,0.219267,0.580215,0.5469,-0.655636,0.656001,0.931156,0.506013,0.33946,-0.46793,-0.580015,0.843671,-0.507436,5.37794,0.408347,1.3724,-0.551605,-0.630941,0.390018,-1.12761,-0.398064,-0.844115,424828,4473213.766,12,1,12,1,Grant View Hot Springs,53,53,53, ,no,0
18,0.520163,0.872065,0.0734238,0.04113743,0.657756,1.03217,0.877027,-0.467321,-0.368531,1.35307,-0.283636,-0.213457,0.18297,5.37794,0.331408,-1.02821,0.776838,-0.623756,0.343628,-1.4526,1.21697,0.530291,327578,4406463.766,12,1,1,12,Sou Hot Springs,85,85,85, ,no,0
19,0.635862,0.7817,0.12042,0.531332,0.415392,-0.477593,1.17998,0.450379,1.32443,0.552045,0.837382,0.189055,-0.187994,5.37794,0.939248,1.29722,-0.216752,2.04717,0.529188,-1.72599,0.870889,-0.156912,438078,4437713.766,12,1,12,1,Diana's Punch Bowl-Potts Ranch,59,74,74,yes,no,0
20,0.0249162,0.124882,0.196889,0.747551,-0.145534,0.603729,1.1244,0.15615,1.48999,0.4893,0.855712,0.618848,0.121143,3.85871,1.147,-1.15571,2.78018,0.132087,0.343628,-1.72599,0.986248,0.530291,438578,4428213.766,12,1,12,1,Smith Ranch,65,72,72, ,no,0
21,0.593458,0.08914046,0.902967,0.434112,-0.142665,1.47847,0.310926,0.433063,1.32765,-0.579596,0.396714,0.699351,-0.929923,5.37794,-0.651118,-1.35165,0.275371,-0.484066,0.343628,-1.38296,1.56304,-1.30225,383578,4455713.766,12,1,1,12,Eleven Mile Canyon,82,0,82, ,yes,0
22,0.2386,0.796614,0.623801,0.337023,0.0985395,0.329465,1.54236,-0.94849,-1.32444,-0.0274742,0.716958,-1.31498,0.110838,5.37794,-0.682839,-1.28653,0.827456,-0.64868,0.0652863,-1.31074,1.56304,-0.729581,311578,4336713.766,12,1,1,12,Blue Eagle Springs,29,41,41,yes,no,0
23,0.337673,0.101881,0.437687,0.330654,1.19594,3.22423,1.21364,0.015332,0.979827,0.862138,1.62005,0.579632,0.67759,5.37794,0.0345066,0.651678,-0.335736,0.88222,0.297237,-1.4397,1.6784,1.33203,396328,4308463.766,12,1,1,12,Stillwater,178,169,178,yes,yes,47.2
24,0.770067,0.565761,0.258988,0.306531,0.608711,-0.560495,1.40114,0.161974,-0.941493,0.211144,0.648704,-0.292864,-0.095253,-0.186819,-0.003406736,-0.259409,-1.57398,-1.08733,-0.305835,-0.583399,1.21697,1.44656,311078,4293213.766,12,1,12,1,Jersey Valley Hot Springs,91,130,166, ,no,23.5
25,0.737789,0.15364,0.712901,0.353883,0.845293,2.97784,-1.80344,-1.24582,-0.615148,0.599978,-1.54237,0.194232,-0.744441,2.98513,0.350702,0.315563,-0.579399,-0.258565,0.80753,-0.0675554,1.44769,-1.53132,579328,4452463.766,12,1,12,1,Dixie Meadows,94,145,145, ,no,0
26,0.250855,0.764016,0.897198,0.526208,-0.753572,0.465923,0.685507,-0.413216,1.42074,0.436913,0.573678,1.06429,0.832158,5.37794,0.0727044,0.298919,-1.30236,-0.289272,0.0652863,0.0820393,1.44769,1.10296,452578,4351713.766,12,1,1,12,Sulphur Hot Springs,136,182,182, ,no,0
27,0.727298,0.835477,0.671464,0.165198,0.530642,0.346868,1.67039,2.10504,0.760399,-0.140574,2.49225,-1.50064,1.21343,5.37794,0.415872,0.318926,1.04228,-0.646175,0.204457,-1.10956,0.755529,-1.18772,356328,4263213.766,12,1,12,1,Soda Lake,216,213,216,yes,yes,26.1
28,0.0895962,0.772612,0.829029,0.985571,-1.02201,0.758809,-1.26452,-0.315192,1.09425,-0.923657,-0.467806,0.403647,-0.610481,3.79174,2.0696,-1.02253,0.0520778,-0.246301,0.111677,-1.14309,0.409451,-1.64585,505328,4499713.766,12,1,12,1,Klobe Hot Spring,70,86,86,yes,no,0
29,0.0373848,0.77274,0.80798,0.144729,0.230028,0.685796,-0.772905,-0.923799,-1.18661,0.622615,-2.18292,1.65893,-0.991751,4.19245,-0.18608,-0.581501,-1.18497,-0.938008,-0.0274941,0.31159,0.870889,-0.500513,709078,4411713.766,12,1,12,1,Hot Creek Ranch Hot Spr,82,160,160,Yes,no,0
30,0.39786,0.0820692,0.0968435,0.9899,-1.21691,1.63644,1.26016,-0.0957799,0.264404,-1.83077,0.546905,0.165672,1.72866,5.37794,1.46639,-0.832093,-0.604268,-0.384852,0.158067,-1.52223,1.6784,1.5611,351078,4341463.766,12,1,1,12,Bradys,212,193,212,yes,no,26.1
31,0.28866,0.798847,0.283551,0.370892,0.328629,3.22423,0.004235585,0.698215,-0.42056,-0.17755,0.706009,1.21123,-0.899009,2.16384,-1.63998,0.202222,-0.202848,-1.04928,0.343628,-0.923856,1.6784,-1.64585,628328,4269213.766,12,1,12,1,Western Augusta Mtn Hot Springs,40,0,40, ,no,0
32,0.440461,0.35984,0.658062,0.275886,-0.141139,2.88485,-0.464058,1.53348,1.73198,0.615501,-2.18292,0.331975,1.06916,3.73554,0.299428,-0.907663,-1.33263,-0.97364,0.297237,-0.219729,1.56304,1.33203,535078,4416963.766,12,1,12,1,Hot Springs Point,64,128,128, ,no,0
33,0.0985636,0.949381,0.059567,0.72993,1.07097,0.37326,-0.178363,0.0117339,-0.882393,0.652825,-1.20067,-1.24763,1.67713,3.72389,0.196372,1.52049,0.351607,-0.230284,0.0188961,-1.303,0.755529,1.5611,350078,4474713.766,12,1,12,1,Empire - San Emidio,148,190,190,yes,no,11.75
34,0.132501,0.562192,0.0807716,0.249161,0.569941,-0.834888,0.825857,-0.820355,-0.579896,1.35307,-0.467806,-0.0696849,0.811549,5.37794,-0.182121,-1.25883,-0.0737337,-0.502143,0.158067,-1.13019,0.178733,1.10296,333078,4402713.766,12,1,1,12,Walti Hot Springs,72,83,83, ,no,0
35,0.28411,0.875695,0.952853,0.803338,0.371355,0.124297,0.776121,-0.382452,-1.06311,0.959186,0.14234,-0.663162,1.00734,-0.186819,0.846476,-0.643083,-0.754818,-0.869018,0.8539197,-0.38222,0.755529,1.44656,310828,4419963.766,12,1,12,1,McCoy,102,122,122,yes,yes,0
36,0.989785,0.08405464,0.845133,0.486888,2.20565,0.820456,1.00166,-0.71455,1.32624,0.575406,1.25446,0.0561841,0.02840179,5.37794,0.300656,1.33729,-0.736433,-0.712757,0.111677,-1.5016,1.56304,0.988426,295578,4473463.766,12,1,1,12,Bach Well,21,78,78, ,yes,0
37,0.198872,0.365708,0.925346,0.239813,-0.411643,-0.266838,1.39083,0.610378,2.21967,-0.406312,1.77446,-0.71748,1.27525,3.50555,1.61619,0.80021,-0.695565,-0.226004,0.0652863,-1.72599,-1.09022,1.33203,408828,4392463.766,12,1,12,1,Monte Neva Hot Springs,89,111,111, ,no,0
38,0.68023,0.351966,0.231978,0.825249,0.440743,0.343208,1.58257,-0.113118,1.98932,0.104894,1.19906,-0.148665,0.883681,5.37794,2.23764,0.382673,-1.10388,-0.183732,-0.166665,-1.53771,1.44769,1.10296,364578,4351213.766,12,1,1,12,Cherry Creek Hot Springs,65,102,102, ,no,0
39,0.668659,0.950748,0.550409,0.73148,0.925212,1.52111,1.54705,1.70341,1.30477,0.749288,1.08107,0.237832,-0.126167,3.79512,-0.966691,1.11139,-0.696911,1.94757,-2.39339,-0.993495,1.21697,-1.64585,290828,4308213.766,12,1,12,1,Fish Creek Springs,19,45,45,yes,no,0
40,0.62693,0.676167,0.084144,0.390712,0.0858348,2.04504,1.18751,1.60674,2.46193,-0.226611,1.06751,-0.599771,-0.29104,5.37794,1.72836,-0.404309,-0.161297,-0.455319,-0.259445,-1.72599,1.56304,0.301223,413578,4412963.766,12,1,1,12,Darroughs Hot Springs,129,145,145, ,no,0.5
41,0.487609,0.514397,0.28866,0.073254,0.852765,0.542339,1.19784,1.36902,2.47667,-0.908427,1.16974,-0.403448,-0.0746439,5.37794,2.23764,-0.833676,-0.156349,-0.749708,-0.120274,-1.72599,1.6784,0.301223,408328,4405463.766,12,1,1,12,Dixie Comstock,196,139,196, ,no,0
42,0.230874,0.132698,0.617489,0.880348,0.920171,-0.965694,0.937709,-0.719205,-0.275655,1.35307,-0.206034,-0.008730007,0.419975,-0.186819,-0.193561,-0.869218,0.677815,-0.872207,0.0188961,-1.45518,0.986248,-1.64585,340328,4405213.766,12,1,1,12,Mosquito Ranch Springs,32,73,73,yes,no,0
43,0.546268,0.327843,0.349011,0.806689,-0.427361,-1.02907,0.360825,-0.230908,-0.104844,0.494006,0.165248,0.123594,-0.713527,5.37794,0.642035,1.45143,-1.21649,0.953104,-0.166665,0.590146,-0.513423,0.0721558,508078,4382213.766,12,1,1,12,Shipley Hot Springs,39,55,55, ,no,0
44,0.504607,0.777728,0.503467,0.232785,1.60421,0.190503,-0.0419536,-1.22556,2.15476,0.889341,0.043048,-0.799566,-0.723832,1.94915,-1.09311,0.427259,-1.17233,-0.432629,0.250847,-0.521498,0.524811,-1.07318,662078,4273463.766,12,1,12,1,Leach Hot Springs,132,169,169, ,no,0
45,0.575306,0.844541,0.989698,0.862575,0.780414,-0.430909,1.50492,0.761518,1.7383,0.822656,1.3729,-0.664319,-0.775355,4.23003,-0.242575,1.60229,0.677125,0.379978,-0.0738843,-1.66925,0.986248,-1.30225,400578,4373963.766,12,1,12,1,Pirouette Mount (Dixie Valley),87,0,87,yes,yes,0
46,0.659981,0.271001,0.744993,0.201414,1.52047,0.205851,1.68273,-0.234146,0.539857,-1.25376,2.27321,0.306217,-0.476522,3.83678,-0.539006,-0.441325,-0.778451,-0.730158,0.250847,-0.851638,0.986248,1.21749,293328,4292213.766,12,1,12,1,Alligator Ridge well,34,44,44, ,yes,0
47,0.166516,0.0390112,0.0535496,0.001544726,0.245788,2.16275,-0.321438,0.210772,-0.372937,-1.58348,0.118718,0.05429598,1.41952,5.37794,0.202172,-0.81007,1.30618,0.193047,-0.259445,-0.289368,1.6784,0.530291,484328,4296463.766,12,1,1,12,Hawthorne 1,97,0,97,yes,yes,0
48,0.895753,0.197554,0.265482,0.128678,1.21543,2.48858,-0.573084,-0.268238,-0.151136,-0.007385101,0.0691245,0.221451,0.203579,3.57952,-1.08652,-0.877156,1.39426,0.232056,0.204457,0.685577,1.44769,1.10296,524578,4297213.766,12,1,12,1,Crescent Valley Hot Sprgs,74,87,87,yes,no,0
49,0.830135,0.871855,0.984756,0.777788,0.448726,1.69134,1.00981,-0.0638919,-0.495543,0.772593,-0.071266,-0.308452,1.45043,4.72271,-1.3347,0.790099,-1.13466,1.21699,0.0188961,-1.07861,1.56304,1.21749,295328,4315213.766,12,1,12,1,Rye Patch,205,224,224,yes,yes,0
50,0.946557,0.526216,0.866206,0.961341,-0.548853,0.988957,-0.393025,-1.12414,-0.981152,-0.436522,0.413147,-1.43001,0.02840179,4.62195,-0.0903883,1.0016,1.18457,1.08811,-0.0274941,0.303852,1.33233,0.301223,556078,4361963.766,12,1,12,1,Gene Sawyer well,54,84,84, ,yes,0
51,0.937629,0.010742,0.523441,0.295938,0.578502,-0.784029,1.25213,-0.886896,0.0522636,-0.0808779,0.855712,-1.37758,1.02794,5.37794,-0.433699,1.30598,0.073385,0.360021,0.0652863,-1.48871,0.294092,1.44656,320328,4383713.766,12,1,1,12,Wellington Well,47,83,83, ,yes,0
52,0.605177,0.418807,0.301537,0.269054,-0.621335,0.695043,-1.23356,-1.01044,-0.405961,1.14532,-0.370134,-0.653054,-0.713527,1.74729,-1.40738,-0.751615,-1.45946,-1.03175,0.436408,-0.0108125,0.870889,-0.615047,619328,4407713.766,12,1,12,1,Moorman,37,45,45,yes,no,0
53,0.565561,0.0853341,0.949857,0.937946,0.256743,1.03269,-0.907931,1.23626,2.28644,0.168836,-0.521839,2.19632,1.1516,5.37794,1.39469,-0.721751,1.59649,0.127403,1.27143,-0.54729,0.755529,1.44656,548078,4462963.766,12,1,12,1,Williams Hot Springs,52,123,123,yes,no,0
54,0.241875,0.182386,0.346134,0.264822,0.175912,-1.06972,1.25282,-0.54288,2.06246,-0.748703,1.12036,-0.68545,0.955813,5.37794,-0.905409,1.50322,-0.160719,1.68748,0.111677,-1.6254,-0.97486,-0.271446,366328,4378463.766,12,1,1,12,Bacon Flat,153,0,130,yes,yes,0
55,0.611977,0.819913,0.607773,0.0143615,-0.359501,-0.540396,1.07354,0.868357,0.552278,0.180516,0.624525,0.488109,-0.136471,-0.186819,0.165023,0.410881,-1.39768,-0.0710425,1.45699,-0.805212,-1.32094,0.415757,414328,4433713.766,12,1,12,1,Wabuska,108,146,146,yes,no,5.6
56,0.901142,0.879909,0.713214,0.0269159,0.883205,-0.328935,0.556974,-0.66582,-0.0576073,0.975851,-0.283636,0.6028943,-0.723832,-0.186819,2.23764,-1.03767,-1.26667,-0.94882,0.761139,-0.408012,0.524811,-0.844115,487578,4416463.766,12,1,1,12,Hind's-Nevada Hot Springs,66,80,80,yes,no,0
57,0.634822,0.65688,0.68864,0.513371,-0.0923807,3.22423,-1.72911,-1.34032,-1.14838,0.537873,-0.871573,0.852866,-0.6517,-0.186819,0.304276,-0.378835,0.457596,-0.429712,0.90031,-0.286789,1.56304,-1.64585,580328,4460713.766,12,1,12,1,Dixie Valley,250,235,250, ,no,70.9
58,0.812405,0.715896,0.021343,0.135254,-1.29848,0.529496,-0.529951,-1.12439,-0.157383,-1.04972,-0.0410295,-1.55575,-0.51774,2.68472,0.212232,1.79132,-0.0619531,1.88173,0.250847,0.125886,1.10161,-0.500513,554828,4378963.766,12,1,12,1,Spencer Hot Springs,73,95,95,yes,no,0
59,0.500311,0.250608,0.671174,0.63345,0.257571,1.31485,-2.27553,0.869819,0.193683,0.890093,-1.20067,0.756227,-0.940228,3.20101,0.440184,-1.10123,-0.70106,-0.876754,0.343628,0.0252965,1.44769,-1.30225,635328,4456963.766,12,1,12,1,Coyote Spring - Pleasant Valley NV,22,64,64, ,no,0
60,0.354106,0.0506231,0.988075,0.793606,-0.669519,-0.723859,0.587287,-1.36226,0.90913,-0.250333,-0.071266,-0.192752,-0.0540348,5.37794,-0.432222,1.45629,-1.20611,1.14395,0.158067,-1.55061,-0.282704,0.301223,341078,4380463.766,12,1,1,12,Big Blue,32,155,155, ,no,0
61,0.421111,0.706782,0.583723,0.03718,0.164505,-0.308322,1.30329,1.10338,0.474584,-1.41676,0.490366,-0.05622761,0.574544,5.37794,-0.0867058,-0.445861,0.109563,-0.33689,0.204457,-1.36232,-0.167345,1.21749,385078,4299713.766,12,1,1,12,Hyder Hot Spring,79,84,84, ,no,0
62,0.187032,0.0602118,0.302027,0.540298,0.0238345,0.239243,-0.805818,1.41859,2.35169,0.203807,-0.206034,2.1381,0.935204,4.26726,2.15874,1.39353,-0.429017,-0.576688,0.390018,-0.952228,0.870889,1.21749,541078,4472963.766,12,1,12,1,Bruffey's Hot Springs,66,72,72, ,no,0
63,0.499842,0.532932,0.209823,0.195505,-0.422823,-1.17773,-0.687134,2.52199,2.41762,-0.904863,-0.102774,0.848238,0.31693,5.37794,2.16514,-0.977395,0.906782,-0.58011,1.45699,-0.823267,-1.09022,0.988426,533578,4489963.766,12,1,1,12,Wild Rose,151,0,151,yes,yes,0
64,0.468573,0.950219,0.314773,0.577496,0.50658,0.904064,1.14943,-0.342335,1.51957,0.6989893,-0.711823,-0.209255,-0.394086,3.53482,1.46292,0.650991,0.182016,0.46506,0.204457,-0.918698,0.986248,0.0721558,490828,4448963.766,12,1,12,1,McGinness Hills,88,192,192,yes,yes,144
65,0.13193,0.208213,0.601583,0.298991,-0.02741026,0.0395973,-0.986603,-1.00862,-0.733905,1.33045,-0.206034,-1.11616,-0.754745,1.87377,-2.00701,0.881853,-0.349847,0.259683,-0.259445,0.394125,-0.167345,-0.729581,627328,4399713.766,12,1,12,1,Lee-Allen Hot Springs,95,171,171,yes,no,0
66,0.0940203,0.24347,0.3289201,0.868021,-0.661649,3.22423,0.782783,2.30422,0.745315,0.974472,0.864712,-0.19056,0.306625,5.37794,-1.21656,-1.14617,0.0526928,-0.748872,-0.0274941,-1.56866,1.6784,0.415757,299828,4503963.766,12,1,1,12,Black Warrior,128,-1,128, ,yes,0
67,0.756686,0.407706,0.0502314,0.30124,0.640862,0.361894,0.798974,0.498975,1.72166,0.827111,0.30872,0.732478,0.533326,2.89443,1.17023,0.57338,-0.0979618,0.265187,0.390018,-1.71568,1.44769,0.759359,447078,4432213.766,12,1,12,1,McCoy Hot Springs,48.9,0,49, ,no,0
68,0.925895,0.120363,0.318042,0.515706,0.66588,-0.757187,0.978768,-0.274646,1.62622,0.546268,-0.243843,0.768223,-0.301344,-0.186819,1.40118,0.496424,-0.582816,0.271238,-0.120274,-0.534394,-0.398064,0.18669,509828,4448463.766,12,1,12,1,Ambassador Well,28,110,110, ,yes,0
69,0.966466,0.140079,0.968155,0.884882,-1.33834,0.449677,-0.344619,-0.0254834,0.17809,0.389203,-0.0119417,-0.547889,0.275711,4.98041,0.161936,1.12844,0.115065,1.48562,0.297237,-0.227467,1.56304,1.21749,512328,4353213.766,12,1,12,1,Buffalo Valley Hot Spring,79,128,128, ,no,0
70,0.692076,0.451716,0.712897,0.04075462,0.862158,-0.548166,-0.436451,-0.344606,0.24167,0.721988,0.250527,-1.86491,-0.641395,1.17855,-1.52132,0.550108,-0.076639,0.0883197,0.0652863,0.0717225,-0.0519859,-0.385979,583078,4347963.766,12,1,12,1,Clan Alpine Ranch,22,70,70, ,yes,0
71,0.796258,0.879397,0.0358916,0.173125,0.607035,1.7248,-0.03194104,1.24186,2.049,0.0622235,-0.643047,1.12817,0.852767,5.37794,0.666837,-1.03605,0.646439,-0.371578,0.529188,-1.15857,1.33233,-1.41678,392328,4486963.766,12,1,1,12,Mound Spring,32,54,54, ,no,0
72,0.3239,0.0812289,0.9602,0.638913,0.750555,-0.131922,-0.747091,-0.588822,-0.461575,-0.237734,0.345153,-0.132528,-0.126167,2.25805,-1.67404,0.949611,-0.938599,1.52046,0.204457,-0.273893,0.986248,0.18669,612578,4311963.766,12,1,12,1,Tungsten Mountain,97,176,176,yes,yes,37
73,0.641163,0.0303817,0.554855,0.212427,-0.516469,3.22423,0.935494,1.94439,0.280747,-1.09968,-0.370134,-0.518965,0.224189,5.37794,0.287695,0.777184,-0.376643,-0.299673,-0.445006,-0.549869,1.6784,0.873892,441328,4391713.766,12,1,1,12,Peterson,92,150,150,yes,no,0
74,0.923186,0.942407,0.559489,0.214852,2.44665,1.07404,1.23714,-1.17915,-0.92854,-3.56668,1.42154,-1.42422,0.626067,5.37794,0.509792,1.79917,2.36686,3.00181,0.0652863,-1.38812,1.33233,1.21749,310578,4366713.766,12,1,1,12,Desert Queen,104,155,155,yes,yes,0
75,0.679854,0.880686,0.221217,0.724518,2.17341,-0.156645,-0.141914,-0.728853,0.196515,0.508359,-0.711823,0.359316,-0.8784,-0.186819,-0.892474,-1.19615,0.160673,-0.314255,0.0188961,0.559195,0.524811,-0.844115,529828,4323463.766,12,1,12,1,Kyle Hot Springs,96,124,124, ,no,0
76,0.597222,0.190307,0.742839,0.566619,0.775145,2.60609,1.21198,1.109,0.316435,-0.846461,0.118718,0.405596,-0.981446,5.37794,-0.531115,-1.16578,-0.141201,-0.856075,0.482798,-1.01671,1.56304,-0.844115,445078,4494963.766,12,1,1,12,Desert Peak,213,219,219,yes,yes,23
77,0.422655,0.529423,0.360229,0.913629,-0.275124,0.832657,-1.35821,1.33329,0.0989194,0.950847,-1.20067,0.88581,-0.806268,4.59677,-0.0817867,-1.01294,-0.85248,-0.758024,-0.676957,0.236792,1.10161,-1.30225,679578,4417463.766,12,1,12,1,McLeod Hot Spring,88,134,134,yes,no,0
78,0.603981,0.281955,0.0984327,0.671797,0.200934,3.22423,0.0426975,0.925116,-0.450002,-0.557711,0.779572,0.804211,-0.095253,-0.186819,-1.67069,0.303269,0.4824,-0.710168,0.204457,-0.949648,1.6784,0.0721558,626328,4262713.766,12,1,1,12,Valley of the Moon,53,56,56, ,no,0
79,0.240062,0.631629,0.447777,0.140296,-1.30951,1.2139,-0.534682,1.06636,1.39157,0.362738,-1.20067,0.53317,-0.826877,4.74259,0.463677,-0.768235,-0.852097,-0.801692,0.0652863,-0.230046,0.524811,-1.53132,527078,4421213.766,12,1,12,1,Colado,155,149,155, ,yes,0
80,0.254294,0.769616,0.234008,0.278409,1.53172,1.95546,-0.823365,-0.341615,-0.997034,0.197195,0.933088,-0.920929,-0.445608,2.02254,-1.93687,0.001822516,-0.429023,-0.561662,0.250847,0.47666,1.56304,-0.271446,549078,4283213.766,12,1,12,1,Spring & Test hole Uce 10,40,42,42,yes,no,0
81,0.571859,0.802883,0.130274,0.463422,2.56469,2.42558,1.63209,0.760124,1.29731,0.983591,1.30608,-0.218511,0.842463,-0.186819,0.969911,-0.54354,-1.35609,-0.985975,-0.537786,-0.91096,1.6784,0.759359,392828,4363713.766,12,1,12,1,New York Canyon,75,0,75, ,yes,0
82,0.551491,0.21232,0.512511,0.447997,2.52068,-0.845162,-0.276014,-0.920538,-1.17828,-0.632902,1.0537,-0.9666,-0.589872,5.37794,-1.44892,0.605662,0.698561,-0.0520223,-1.00169,-0.25068,-1.09022,-0.500513,555078,4263713.766,12,1,1,12,Warm Springs Ranch-Newark Valley,23,42,42, ,no,0